File: symbols/TGA.csv
Date,High,Low,Open,Close,Volume,Adj Close
2017-08-07,1.3,1.23,1.27,1.25,14800.0,1.18235
2017-08-09,1.26,1.24,1.25,1.25,18700.0,1.18235
2017-08-11,1.25,1.18,1.24,1.19,100900.0,1.1256
2017-08-15,1.22,1.18,1.19,1.18,65700.0,1.11614
2017-08-17,1.24,1.2,1.24,1.2,67900.0,1.13506
2017-08-21,1.22,1.18,1.19,1.2,63100.0,1.13506
2017-08-23,1.24,1.2,1.2,1.24,40600.0,1.17289
2017-08-25,1.3,1.21,1.3,1.26,63200.0,1.19181
2017-08-29,1.33,1.24,1.24,1.29,23500.0,1.22018
2017-08-31,1.35,1.23,1.26,1.34,60600.0,1.26748
2017-09-05,1.33,1.28,1.3,1.3,34700.0,1.22964
2017-09-07,1.34,1.28,1.29,1.29,12300.0,1.22018
2017-09-11,1.29,1.21,1.29,1.21,178900.0,1.14451
2017-09-13,1.25,1.12,1.16,1.21,144800.0,1.14451
2017-09-15,1.26,1.07,1.23,1.07,438800.0,1.01209
2017-09-19,1.17,1.12,1.13,1.15,81800.0,1.08776
2017-09-21,1.23,1.15,1.15,1.21,169900.0,1.14451
2017-09-25,1.3,1.25,1.26,1.29,82100.0,1.22018
2017-09-27,1.37,1.32,1.33,1.36,99300.0,1.2864
2017-09-29,1.44,1.38,1.38,1.44,101500.0,1.36207
2017-10-03,1.43,1.35,1.41,1.42,59900.0,1.34315
2017-10-05,1.5,1.43,1.44,1.48,56400.0,1.3999
2017-10-09,1.55,1.46,1.52,1.51,58400.0,1.42828
2017-10-11,1.64,1.54,1.56,1.64,115000.0,1.55124
2017-10-13,1.62,1.58,1.62,1.6,49300.0,1.51341
2017-10-17,1.63,1.53,1.58,1.58,112700.0,1.49449
2017-10-19,1.61,1.5,1.61,1.61,35100.0,1.52287
2017-10-23,1.6,1.53,1.6,1.57,46800.0,1.48503
2017-10-25,1.58,1.54,1.57,1.54,19400.0,1.45665
2017-10-27,1.6,1.54,1.56,1.6,34700.0,1.51341
2017-10-31,1.7,1.56,1.65,1.68,45700.0,1.58908
2017-11-02,1.85,1.74,1.76,1.79,150300.0,1.69312
2017-11-06,1.59,1.49,1.56,1.54,128200.0,1.45665
2017-11-08,1.57,1.51,1.56,1.52,20400.0,1.43774
2017-11-10,1.53,1.49,1.5,1.5,54100.0,1.41882
2017-11-14,1.5,1.47,1.49,1.48,43800.0,1.3999
2017-11-16,1.48,1.43,1.48,1.45,50900.0,1.37153
2017-11-20,1.49,1.45,1.48,1.49,21500.0,1.40936
2017-11-22,1.53,1.48,1.48,1.49,116900.0,1.40936
2017-11-27,1.53,1.46,1.51,1.47,39000.0,1.39044
2017-11-29,1.46,1.38,1.46,1.44,107600.0,1.36207
2017-12-01,1.5,1.45,1.46,1.45,51300.0,1.37153
2017-12-05,1.45,1.42,1.44,1.43,13700.0,1.35261
2017-12-07,1.38,1.34,1.37,1.36,34200.0,1.2864
2017-12-11,1.38,1.3,1.35,1.37,49600.0,1.29585
2017-12-13,1.38,1.31,1.37,1.33,75500.0,1.25802
2017-12-15,1.33,1.3,1.32,1.32,44600.0,1.24856
2017-12-19,1.28,1.26,1.27,1.26,78000.0,1.19181
2017-12-21,1.33,1.29,1.3,1.33,132500.0,1.25802
2017-12-26,1.37,1.33,1.34,1.34,61000.0,1.26748
2017-12-28,1.43,1.38,1.38,1.4,119100.0,1.32423
2018-01-02,1.48,1.44,1.47,1.46,54800.0,1.38098
2018-01-04,1.44,1.4,1.44,1.44,77800.0,1.36207
2018-01-08,1.44,1.42,1.44,1.44,119300.0,1.36207
2018-01-10,1.46,1.42,1.42,1.45,94700.0,1.37153
2018-01-12,1.49,1.45,1.49,1.47,138000.0,1.39044
2018-01-17,1.46,1.44,1.46,1.45,28300.0,1.37153
2018-01-19,1.49,1.45,1.47,1.48,33400.0,1.3999
2018-01-23,1.49,1.44,1.46,1.45,49000.0,1.37153
2018-01-25,1.5,1.46,1.46,1.48,61000.0,1.3999
2018-01-29,1.5,1.46,1.49,1.48,59400.0,1.3999
2018-01-31,1.48,1.38,1.4,1.47,118600.0,1.39044
2018-02-02,1.47,1.4,1.44,1.44,65300.0,1.36207
2018-02-06,1.4,1.36,1.4,1.4,93400.0,1.32423
2018-02-08,1.38,1.29,1.37,1.3,124000.0,1.22964
2018-02-12,1.33,1.27,1.27,1.33,70300.0,1.25802
2018-02-14,1.35,1.3,1.33,1.33,39400.0,1.25802
2018-02-16,1.35,1.3,1.3,1.32,39700.0,1.24856
2018-02-21,1.34,1.28,1.33,1.28,69700.0,1.21073
2018-02-23,1.32,1.28,1.29,1.32,9800.0,1.24856
2018-02-27,1.35,1.27,1.31,1.27,92600.0,1.20127
2018-03-01,1.34,1.28,1.34,1.29,14300.0,1.22018
2018-03-05,1.29,1.24,1.25,1.29,49800.0,1.22018
2018-03-07,1.32,1.27,1.3,1.28,64900.0,1.21073
2018-03-09,1.31,1.28,1.3,1.29,69100.0,1.22018
2018-03-13,1.34,1.28,1.28,1.34,44200.0,1.26748
2018-03-15,1.35,1.31,1.33,1.35,19100.0,1.27694
2018-03-19,1.35,1.32,1.32,1.34,27700.0,1.26748
2018-03-21,1.41,1.34,1.34,1.41,41900.0,1.33369
2018-03-23,1.46,1.42,1.46,1.45,33200.0,1.37153
2018-03-27,1.39,1.34,1.38,1.35,49200.0,1.27694
2018-03-29,1.35,1.31,1.33,1.34,47800.0,1.26748
2018-04-03,1.34,1.31,1.34,1.32,17400.0,1.24856
2018-04-05,1.33,1.25,1.31,1.26,273200.0,1.19181
2018-04-09,1.33,1.25,1.29,1.27,134100.0,1.20127
2018-04-11,1.34,1.29,1.29,1.32,91800.0,1.24856
2018-04-13,1.39,1.33,1.35,1.36,72500.0,1.2864
2018-04-17,1.42,1.37,1.39,1.4,131000.0,1.32423
2018-04-19,1.48,1.4,1.4,1.47,54600.0,1.39044
2018-04-23,1.6,1.53,1.6,1.57,136600.0,1.48503
2018-04-25,1.66,1.55,1.57,1.63,88300.0,1.54178
2018-04-27,1.75,1.63,1.74,1.65,241500.0,1.5607
2018-05-01,1.9,1.78,1.8,1.83,180500.0,1.73096
2018-05-03,1.94,1.85,1.87,1.93,144600.0,1.82555
2018-05-07,2.01,1.88,1.88,1.96,243600.0,1.85392
2018-05-09,2.14,2.02,2.02,2.12,620600.0,2.00526
2018-05-11,2.01,1.78,2.01,1.91,377400.0,1.80663
2018-05-15,2.02,1.9,1.93,1.95,367500.0,1.84447
2018-05-17,2.1,2.03,2.05,2.04,664300.0,1.92959
2018-05-21,2.84,2.35,2.38,2.64,1888900.0,2.49712
2018-05-23,2.49,2.2,2.21,2.44,686800.0,2.30795
2018-05-25,2.3,2.12,2.3,2.27,518800.0,2.14715
2018-05-30,2.49,2.26,2.28,2.49,483600.0,2.35524
2018-06-01,2.58,2.43,2.56,2.47,415800.0,2.33632
2018-06-05,2.42,2.24,2.39,2.36,428600.0,2.23228
2018-06-07,2.52,2.41,2.49,2.45,279100.0,2.3174
2018-06-11,2.42,2.3,2.39,2.37,482500.0,2.24173
2018-06-13,2.45,2.36,2.39,2.4,401700.0,2.27011
2018-06-15,2.3,2.24,2.3,2.24,431400.0,2.11877
2018-06-19,2.41,2.27,2.34,2.38,239500.0,2.25119
2018-06-21,2.36,2.28,2.36,2.31,178400.0,2.18498
2018-06-25,2.43,2.32,2.36,2.4,165700.0,2.27011
2018-06-27,2.68,2.44,2.44,2.63,920900.0,2.48766
2018-06-29,2.83,2.69,2.77,2.77,641600.0,2.62009
2018-07-03,3.03,2.76,2.76,2.87,940600.0,2.71467
2018-07-06,2.95,2.86,2.94,2.94,503500.0,2.78089
2018-07-10,3.48,3.32,3.33,3.41,1388600.0,3.22545
2018-07-12,3.89,3.66,3.89,3.76,1408600.0,3.55651
2018-07-16,4.0,3.67,4.0,3.77,1696900.0,3.56597
2018-07-18,3.65,3.37,3.52,3.59,999100.0,3.39571
2018-07-20,3.61,3.39,3.6,3.43,600000.0,3.24437
2018-07-24,3.53,3.37,3.37,3.37,685000.0,3.18761
2018-07-26,3.4,3.28,3.33,3.35,318300.0,3.1687
2018-07-30,3.23,3.11,3.18,3.13,359500.0,2.9606
2018-08-01,3.3,3.13,3.24,3.24,330400.0,3.06465
2018-08-03,3.27,3.16,3.17,3.22,581300.0,3.04573
2018-08-07,3.28,3.1,3.1,3.19,304700.0,3.01736
2018-08-09,3.24,3.13,3.21,3.21,209200.0,3.03627
2018-08-13,3.22,3.02,3.22,3.06,533600.0,2.89439
2018-08-15,3.12,2.83,3.11,2.93,731000.0,2.77143
2018-08-17,3.22,3.07,3.09,3.12,647200.0,2.95114
2018-08-21,3.58,3.31,3.38,3.47,575500.0,3.2822
2018-08-23,3.5,3.25,3.5,3.42,553800.0,3.23491
2018-08-27,3.53,3.42,3.49,3.47,231800.0,3.2822
2018-08-29,3.5,3.42,3.44,3.46,149800.0,3.27274
2018-08-31,3.39,3.31,3.36,3.36,143000.0,3.21063
2018-09-05,3.37,3.19,3.3,3.3,448500.0,3.1533
2018-09-07,3.24,3.16,3.19,3.21,119200.0,3.0673
2018-09-11,3.81,3.52,3.6,3.74,805200.0,3.57374
2018-09-13,3.7,3.54,3.56,3.57,237800.0,3.4113
2018-09-17,3.65,3.53,3.61,3.55,185700.0,3.39219
2018-09-19,3.41,3.35,3.4,3.39,184100.0,3.2393
2018-09-21,3.36,3.23,3.31,3.32,286300.0,3.17241
2018-09-25,3.7,3.41,3.51,3.44,703300.0,3.28708
2018-09-27,3.35,3.28,3.35,3.3,413900.0,3.1533
2018-10-01,3.57,3.35,3.35,3.52,466200.0,3.36352
2018-10-03,3.51,3.36,3.48,3.45,776300.0,3.29663
2018-10-05,3.36,3.11,3.31,3.32,1167900.0,3.17241
2018-10-09,3.41,3.14,3.21,3.35,157100.0,3.20108
2018-10-11,3.21,2.99,3.14,3.0,497800.0,2.86664
2018-10-15,3.15,3.0,3.1,3.02,372100.0,2.88575
2018-10-17,3.13,3.01,3.11,3.09,230100.0,2.95264
2018-10-19,3.1,2.97,3.04,2.99,229600.0,2.85708
2018-10-23,2.6,2.02,2.52,2.03,2656500.0,1.93976
2018-10-25,2.5,2.27,2.38,2.45,526100.0,2.34109
2018-10-29,2.49,2.27,2.46,2.31,321100.0,2.20731
2018-10-31,2.42,2.3,2.33,2.31,209200.0,2.20731
2018-11-02,2.48,2.31,2.46,2.36,218000.0,2.25509
2018-11-06,2.42,2.32,2.38,2.39,181300.0,2.28375
2018-11-08,2.37,2.14,2.3,2.22,358600.0,2.12131
2018-11-12,2.2,2.05,2.16,2.11,279500.0,2.0162
2018-11-14,2.42,2.12,2.41,2.15,243400.0,2.05442
2018-11-16,2.26,2.12,2.22,2.25,139400.0,2.14998
2018-11-20,2.3,2.08,2.26,2.14,271700.0,2.04487
2018-11-23,2.17,2.1,2.16,2.13,43000.0,2.03531
2018-11-27,2.17,1.97,2.14,2.01,248100.0,1.92065
2018-11-29,2.19,2.0,2.08,2.17,175700.0,2.07353
2018-12-03,2.23,2.15,2.17,2.18,139500.0,2.08309
2018-12-06,2.15,1.92,2.11,1.96,267500.0,1.87287
2018-12-10,1.98,1.8,1.98,1.81,350900.0,1.72954
2018-12-12,1.95,1.87,1.92,1.88,219900.0,1.79643
2018-12-14,1.88,1.77,1.85,1.78,77100.0,1.70087
2018-12-18,1.78,1.7,1.78,1.71,187600.0,1.63398
2018-12-20,1.66,1.55,1.66,1.62,302600.0,1.54798
2018-12-24,1.57,1.5,1.55,1.52,131900.0,1.45243
2018-12-27,1.68,1.58,1.62,1.68,116300.0,1.60532
2018-12-31,1.88,1.69,1.7,1.87,240200.0,1.78687
2019-01-03,1.89,1.76,1.85,1.89,73200.0,1.80598
2019-01-07,2.13,1.93,1.93,2.07,182600.0,1.97798
2019-01-09,2.11,2.03,2.06,2.09,135900.0,1.99709
2019-01-11,2.03,1.97,2.03,1.98,36200.0,1.89198
2019-01-15,2.01,1.94,1.96,1.96,55200.0,1.87287
2019-01-17,1.96,1.9,1.92,1.94,40400.0,1.85376
2019-01-22,1.89,1.75,1.8,1.76,97100.0,1.68176
2019-01-24,1.86,1.76,1.76,1.79,96800.0,1.71043
2019-01-28,1.85,1.77,1.84,1.79,16800.0,1.71043
2019-01-30,1.85,1.72,1.72,1.83,167500.0,1.74865
2019-02-01,1.99,1.82,1.82,1.93,101700.0,1.8442
2019-02-05,1.94,1.88,1.93,1.92,42500.0,1.83465
2019-02-07,1.94,1.83,1.93,1.87,23400.0,1.78687
2019-02-11,1.86,1.8,1.83,1.85,50600.0,1.76776
2019-02-13,2.0,1.93,1.93,1.98,90000.0,1.89198
2019-02-15,2.12,2.03,2.03,2.09,135300.0,1.99709
2019-02-20,2.19,1.97,2.14,2.01,96700.0,1.92065
2019-02-22,2.1,2.02,2.03,2.07,78900.0,1.97798
2019-02-26,2.06,1.96,2.03,1.98,70000.0,1.89198
2019-02-28,2.05,1.98,2.03,1.98,72500.0,1.89198
2019-03-04,2.04,1.98,2.0,1.98,74400.0,1.89198
2019-03-06,2.2,2.02,2.04,2.04,130700.0,1.94931
2019-03-08,2.06,1.98,2.02,2.02,59000.0,1.9302
2019-03-12,2.16,2.06,2.07,2.11,143000.0,2.0162
2019-03-14,2.19,2.03,2.1,2.08,106100.0,1.98753
2019-03-18,2.19,2.07,2.07,2.17,131100.0,2.07353
2019-03-20,2.18,2.12,2.18,2.14,155900.0,2.04487
2019-03-22,2.09,1.97,2.09,1.98,270000.0,1.89198
2019-03-26,1.9,1.72,1.87,1.75,448300.0,1.6722
2019-03-28,1.87,1.81,1.81,1.85,138200.0,1.80204
2019-04-01,1.94,1.82,1.93,1.86,216800.0,1.81178
2019-04-03,1.87,1.79,1.87,1.8,76700.0,1.75333
2019-04-05,1.86,1.77,1.79,1.84,88400.0,1.7923
2019-04-09,1.89,1.85,1.86,1.86,56600.0,1.81178
2019-04-11,1.97,1.86,1.88,1.88,88100.0,1.83126
2019-04-15,1.88,1.83,1.88,1.86,132000.0,1.81178
2019-04-17,1.87,1.83,1.83,1.86,58400.0,1.81178
2019-04-22,2.01,1.9,1.9,1.95,134900.0,1.89944
2019-04-24,1.97,1.89,1.95,1.92,158900.0,1.87022
2019-04-26,1.92,1.85,1.92,1.9,97100.0,1.85074
2019-04-30,1.97,1.92,1.95,1.95,58200.0,1.89944
2019-05-02,1.91,1.87,1.91,1.89,34600.0,1.841
2019-05-06,1.88,1.85,1.88,1.87,148500.0,1.82152
2019-05-08,1.86,1.82,1.82,1.82,60700.0,1.77281
2019-05-10,1.83,1.78,1.8,1.78,103500.0,1.73385
2019-05-14,1.81,1.76,1.78,1.76,155500.0,1.71437
2019-05-16,1.79,1.75,1.76,1.76,70200.0,1.71437
2019-05-20,1.73,1.68,1.72,1.7,189300.0,1.65593
2019-05-22,1.69,1.6,1.66,1.6,102400.0,1.55852
2019-05-24,1.59,1.49,1.52,1.51,135500.0,1.47085
2019-05-29,1.56,1.5,1.52,1.51,98100.0,1.47085
2019-05-31,1.52,1.44,1.49,1.5,105100.0,1.46111
2019-06-04,1.55,1.49,1.53,1.54,64800.0,1.50007
2019-06-06,1.54,1.51,1.53,1.51,68000.0,1.47085
2019-06-10,1.56,1.47,1.54,1.49,195500.0,1.45137
2019-06-12,1.5,1.4,1.47,1.42,141900.0,1.38319
2019-06-14,1.47,1.38,1.47,1.4,122100.0,1.3637
2019-06-18,1.46,1.41,1.43,1.45,59300.0,1.41241
2019-06-20,1.47,1.41,1.42,1.45,250900.0,1.41241
2019-06-24,1.43,1.38,1.43,1.39,102000.0,1.35396
2019-06-26,1.45,1.37,1.41,1.42,220000.0,1.38319
2019-06-28,1.42,1.39,1.42,1.39,56200.0,1.35396
2019-07-02,1.44,1.35,1.44,1.36,85300.0,1.32474
2019-07-05,1.37,1.34,1.37,1.35,61800.0,1.315
2019-07-09,1.38,1.34,1.35,1.37,101700.0,1.33448
2019-07-11,1.5,1.45,1.5,1.47,167500.0,1.43189
2019-07-15,1.5,1.46,1.47,1.48,75300.0,1.44163
2019-07-17,1.47,1.43,1.47,1.43,175400.0,1.39293
2019-07-19,1.46,1.42,1.43,1.45,102600.0,1.41241
2019-07-23,1.46,1.43,1.45,1.45,20800.0,1.41241
2019-07-25,1.47,1.41,1.47,1.41,44800.0,1.37344
2019-07-29,1.43,1.38,1.38,1.4,121600.0,1.3637
2019-07-31,1.55,1.47,1.49,1.55,195400.0,1.50981
2019-08-02,1.55,1.45,1.52,1.46,98200.0,1.42215
2019-08-06,1.46,1.42,1.45,1.43,201500.0,1.39293
2019-08-08,1.46,1.41,1.43,1.44,134600.0,1.40267
2019-08-12,1.48,1.4,1.42,1.48,124200.0,1.44163
2019-08-14,1.52,1.42,1.52,1.43,146100.0,1.39293
2019-08-16,1.49,1.4,1.45,1.47,107700.0,1.43189
2019-08-20,1.46,1.4,1.45,1.42,52300.0,1.38319
2019-08-22,1.45,1.42,1.45,1.43,38000.0,1.39293
2019-08-26,1.38,1.32,1.37,1.33,114800.0,1.29552
2019-08-28,1.36,1.34,1.34,1.35,99900.0,1.315
2019-08-30,1.37,1.31,1.35,1.33,107800.0,1.33
2019-09-04,1.37,1.33,1.35,1.35,261900.0,1.35
2019-09-06,1.43,1.35,1.37,1.4,68300.0,1.4
2019-09-10,1.5,1.44,1.46,1.49,260700.0,1.49
2019-09-12,1.49,1.41,1.49,1.43,225100.0,1.43
2019-09-16,1.6,1.49,1.5,1.52,382500.0,1.52
2019-09-18,1.5,1.43,1.46,1.44,274600.0,1.44
2019-09-20,1.48,1.4,1.48,1.43,216400.0,1.43
2019-09-24,1.43,1.38,1.41,1.39,107400.0,1.39
2019-09-26,1.37,1.34,1.37,1.36,169800.0,1.36
2019-09-30,1.35,1.31,1.33,1.33,110100.0,1.33
2019-10-02,1.32,1.26,1.31,1.28,233300.0,1.28
2019-10-04,1.31,1.28,1.28,1.31,28900.0,1.31
2019-10-08,1.35,1.29,1.35,1.31,91700.0,1.31
2019-10-10,1.31,1.25,1.31,1.27,240400.0,1.27
2019-10-14,1.3,1.28,1.29,1.3,35700.0,1.3
2019-10-16,1.32,1.26,1.29,1.26,62500.0,1.26
2019-10-18,1.29,1.24,1.27,1.25,110800.0,1.25
2019-10-22,1.27,1.23,1.25,1.24,137000.0,1.24
2019-10-24,1.27,1.22,1.24,1.23,123700.0,1.23
2019-10-28,1.22,1.19,1.2,1.2,139000.0,1.2
2019-10-30,1.19,1.16,1.18,1.17,80600.0,1.17
2019-11-01,1.22,1.15,1.16,1.17,158300.0,1.17
2019-11-05,1.28,1.23,1.24,1.26,110900.0,1.26
2019-11-07,1.25,1.23,1.23,1.24,73200.0,1.24
2019-11-11,1.23,1.2,1.22,1.22,76700.0,1.22
2019-11-13,1.18,1.16,1.18,1.17,52400.0,1.17
2019-11-15,1.19,1.17,1.17,1.18,123400.0,1.18
2019-11-19,1.15,1.11,1.11,1.12,259800.0,1.12
2019-11-21,1.17,1.14,1.15,1.14,103500.0,1.14
2019-11-25,1.16,1.11,1.15,1.14,199300.0,1.14
2019-11-27,1.17,1.14,1.16,1.14,77100.0,1.14
2019-12-02,1.17,1.07,1.11,1.12,163700.0,1.12
2019-12-04,1.15,1.11,1.13,1.14,220900.0,1.14
2019-12-06,1.2,1.15,1.16,1.19,155700.0,1.19
2019-12-10,1.2,1.16,1.19,1.19,99400.0,1.19
2019-12-12,1.23,1.17,1.19,1.23,179300.0,1.23
2019-12-16,1.32,1.26,1.27,1.28,179400.0,1.28
2019-12-18,1.32,1.24,1.28,1.3,115400.0,1.3
2019-12-20,1.46,1.36,1.36,1.45,409800.0,1.45
2019-12-24,1.49,1.45,1.49,1.45,55100.0,1.45
2019-12-27,1.47,1.43,1.43,1.43,134400.0,1.43
2019-12-31,1.57,1.36,1.48,1.38,723900.0,1.38
2020-01-03,1.5,1.42,1.49,1.45,257400.0,1.45
2020-01-07,1.42,1.39,1.4,1.4,105000.0,1.4
2020-01-09,1.4,1.26,1.33,1.39,299500.0,1.39
2020-01-13,1.44,1.32,1.42,1.43,151600.0,1.43
2020-01-15,1.4,1.34,1.4,1.36,78500.0,1.36
2020-01-17,1.41,1.34,1.39,1.39,166600.0,1.39
2020-01-22,1.37,1.33,1.36,1.36,83400.0,1.36
2020-01-24,1.36,1.26,1.29,1.27,123900.0,1.27
2020-01-28,1.28,1.22,1.23,1.26,79200.0,1.26
2020-01-30,1.32,1.2,1.2,1.3,164600.0,1.3
2020-02-03,1.28,1.22,1.28,1.25,79300.0,1.25
2020-02-05,1.33,1.27,1.3,1.28,159100.0,1.28
2020-02-07,1.3,1.24,1.3,1.28,78300.0,1.28
2020-02-11,1.26,1.23,1.26,1.23,64500.0,1.23
2020-02-13,1.27,1.21,1.27,1.23,41300.0,1.23
2020-02-18,1.25,1.19,1.2,1.2,105200.0,1.2
2020-02-20,1.24,1.2,1.22,1.22,88600.0,1.22
2020-02-24,1.23,1.17,1.18,1.21,87700.0,1.21
2020-02-26,1.21,1.05,1.17,1.14,173100.0,1.14
2020-02-28,1.09,1.01,1.01,1.09,307200.0,1.09
2020-03-03,1.15,1.07,1.11,1.11,64500.0,1.11
2020-03-05,1.1,1.06,1.07,1.08,81800.0,1.08
2020-03-09,0.8,0.64,0.8,0.69,884200.0,0.69
2020-03-11,0.79,0.61,0.79,0.64,203900.0,0.64
2020-03-13,0.58,0.46,0.58,0.48,443700.0,0.48
2020-03-17,0.51,0.41,0.51,0.46,52300.0,0.46
2020-03-19,0.45,0.32,0.45,0.38,206300.0,0.38
2020-03-23,0.4,0.35,0.39,0.39,111700.0,0.39
2020-03-25,0.53,0.4,0.43,0.47,590200.0,0.47
2020-03-27,0.42,0.37,0.4,0.39,112500.0,0.39
2020-03-31,0.4,0.35,0.36,0.36,236500.0,0.36
2020-04-02,0.41,0.34,0.35,0.39,566700.0,0.39
2020-04-06,0.43,0.38,0.4,0.41,126400.0,0.41
2020-04-08,0.45,0.39,0.4,0.45,74400.0,0.45
2020-04-13,0.5,0.42,0.49,0.43,199900.0,0.43
2020-04-15,0.46,0.4,0.41,0.43,92500.0,0.43
2020-04-17,0.44,0.38,0.42,0.44,93100.0,0.44
2020-04-21,0.43,0.38,0.43,0.42,73700.0,0.42
2020-04-23,0.47,0.4,0.43,0.45,115300.0,0.45
2020-04-27,0.5,0.43,0.5,0.47,85000.0,0.47
2020-04-29,0.58,0.47,0.48,0.56,347600.0,0.56
2020-05-01,0.67,0.51,0.64,0.57,235500.0,0.57
2020-05-05,0.63,0.56,0.57,0.56,265000.0,0.56
2020-05-07,0.59,0.54,0.55,0.55,70500.0,0.55
2020-05-11,0.56,0.5,0.56,0.52,87200.0,0.52
2020-05-13,0.5,0.46,0.48,0.49,62200.0,0.49
2020-05-15,0.5,0.45,0.47,0.5,91000.0,0.5
2020-05-19,0.53,0.48,0.48,0.52,198500.0,0.52
2020-05-21,0.57,0.51,0.54,0.57,88300.0,0.57
2020-05-26,0.57,0.51,0.52,0.56,183000.0,0.56
2020-05-28,0.56,0.51,0.56,0.54,149800.0,0.54
2020-06-01,0.56,0.51,0.51,0.52,117900.0,0.52
2020-06-03,0.56,0.5,0.52,0.54,166400.0,0.54
2020-06-05,0.67,0.61,0.64,0.63,422100.0,0.63
2020-06-09,0.73,0.64,0.73,0.69,268500.0,0.69
2020-06-11,0.6,0.54,0.56,0.57,164300.0,0.57
2020-06-15,0.6,0.55,0.57,0.59,103800.0,0.59
2020-06-17,0.6,0.55,0.58,0.58,110300.0,0.58
2020-06-19,0.59,0.55,0.56,0.55,196300.0,0.55
2020-06-23,0.6,0.56,0.57,0.58,180500.0,0.58
2020-06-25,0.59,0.54,0.56,0.56,70600.0,0.56
2020-06-29,0.59,0.53,0.57,0.56,142600.0,0.56
2020-07-01,0.64,0.55,0.57,0.59,105800.0,0.59
2020-07-06,0.73,0.6,0.63,0.62,558700.0,0.62
2020-07-08,0.64,0.6,0.64,0.63,140600.0,0.63
2020-07-10,0.63,0.56,0.56,0.6,77900.0,0.6
2020-07-14,0.6,0.58,0.59,0.59,102500.0,0.59
2020-07-16,0.61,0.59,0.6,0.6,46100.0,0.6
2020-07-20,0.61,0.56,0.61,0.58,77800.0,0.58
2020-07-22,0.66,0.6,0.63,0.61,599100.0,0.61
2020-07-24,0.6,0.57,0.6,0.59,114600.0,0.59
2020-07-28,0.6,0.57,0.57,0.59,123700.0,0.59
2020-07-30,0.59,0.56,0.59,0.57,120800.0,0.57
2020-08-03,0.58,0.56,0.57,0.57,96000.0,0.57
2020-08-05,0.62,0.59,0.59,0.6,190700.0,0.6
2020-08-07,0.6,0.57,0.59,0.6,79800.0,0.6
2020-08-11,0.63,0.58,0.62,0.61,108600.0,0.61
2020-08-13,0.6,0.58,0.6,0.6,82200.0,0.6
2020-08-17,0.61,0.59,0.59,0.6,188900.0,0.6
2020-08-19,0.6,0.56,0.6,0.6,277100.0,0.6
2020-08-21,0.57,0.53,0.56,0.57,314100.0,0.57
2020-08-25,0.57,0.52,0.52,0.55,89700.0,0.55
2020-08-27,0.58,0.53,0.58,0.55,249300.0,0.55
2020-08-31,0.56,0.53,0.55,0.55,52900.0,0.55
2020-09-02,0.55,0.53,0.53,0.53,145000.0,0.53
2020-09-04,0.54,0.49,0.52,0.5,191800.0,0.5
2020-09-09,0.49,0.45,0.49,0.47,95800.0,0.47
2020-09-11,0.47,0.43,0.45,0.45,117800.0,0.45
2020-09-15,0.5,0.46,0.46,0.46,122500.0,0.46
2020-09-17,0.48,0.43,0.45,0.44,344100.0,0.44
2020-09-21,0.42,0.39,0.39,0.41,127300.0,0.41
2020-09-23,0.42,0.38,0.41,0.41,633600.0,0.41
2020-09-25,0.41,0.39,0.4,0.4,200200.0,0.4
2020-09-29,0.42,0.38,0.38,0.41,305500.0,0.41
2020-10-01,0.41,0.38,0.41,0.4,124600.0,0.4
2020-10-05,0.41,0.39,0.4,0.4,131400.0,0.4
2020-10-07,0.41,0.39,0.4,0.41,129000.0,0.41
2020-10-09,0.52,0.44,0.52,0.48,438100.0,0.48
2020-10-13,0.46,0.41,0.43,0.44,247600.0,0.44
2020-10-15,0.48,0.42,0.42,0.46,210700.0,0.46
2020-10-19,0.48,0.44,0.46,0.44,93900.0,0.44
2020-10-21,0.45,0.44,0.45,0.44,74700.0,0.44
2020-10-23,0.5,0.41,0.48,0.42,1523200.0,0.42
2020-10-27,0.42,0.4,0.41,0.4,122300.0,0.4
2020-10-29,0.41,0.38,0.39,0.38,157500.0,0.38
2020-11-02,0.4,0.37,0.37,0.39,152600.0,0.39
2020-11-04,0.43,0.4,0.43,0.41,41900.0,0.41
2020-11-06,0.43,0.4,0.42,0.43,92100.0,0.43
2020-11-10,0.43,0.41,0.42,0.43,270500.0,0.43
2020-11-12,0.44,0.42,0.44,0.43,65000.0,0.43
2020-11-16,0.46,0.42,0.43,0.44,386100.0,0.44
2020-11-18,0.46,0.42,0.42,0.45,347300.0,0.45
2020-11-20,0.48,0.46,0.47,0.47,145800.0,0.47
2020-11-24,0.53,0.48,0.5,0.49,806500.0,0.49
2020-11-27,0.54,0.51,0.54,0.53,321300.0,0.53
2020-12-01,0.53,0.49,0.53,0.5,167200.0,0.5
2020-12-03,1.02,0.5,0.51,0.64,21854500.0,0.64
2020-12-07,0.85,0.7,0.79,0.83,2286000.0,0.83
2020-12-09,0.95,0.88,0.95,0.94,797100.0,0.94
2020-12-11,1.05,0.92,1.04,0.93,839000.0,0.93
2020-12-15,1.03,0.93,1.0,0.95,284000.0,0.95
2020-12-17,0.98,0.92,0.95,0.95,264000.0,0.95
2020-12-21,0.9,0.81,0.89,0.83,634000.0,0.83
2020-12-23,0.96,0.87,0.88,0.95,201100.0,0.95
2020-12-28,1.01,0.92,1.01,0.95,241200.0,0.95
2020-12-30,0.95,0.85,0.85,0.87,544600.0,0.87
2021-01-04,0.96,0.88,0.95,0.91,306600.0,0.91
2021-01-06,1.05,0.94,0.96,0.99,507000.0,0.99
2021-01-08,1.15,0.99,1.01,1.14,1004400.0,1.14
2021-01-12,1.21,1.12,1.13,1.16,407500.0,1.16
2021-01-14,1.19,1.12,1.16,1.18,639600.0,1.18
2021-01-19,1.21,1.14,1.16,1.15,385000.0,1.15
2021-01-21,1.17,1.06,1.13,1.15,890900.0,1.15
2021-01-25,1.12,1.04,1.12,1.08,298200.0,1.08
2021-01-27,1.14,1.0,1.02,1.03,438500.0,1.03
2021-01-29,1.11,1.02,1.07,1.04,702400.0,1.04
2021-02-02,1.16,1.07,1.07,1.13,468600.0,1.13
2021-02-04,1.3,1.18,1.22,1.23,860500.0,1.23
2021-02-08,1.32,1.23,1.27,1.32,907700.0,1.32
2021-02-10,1.45,1.26,1.35,1.39,976500.0,1.39
2021-02-12,1.43,1.34,1.41,1.4,487600.0,1.4
2021-02-17,1.42,1.31,1.38,1.39,623600.0,1.39
2021-02-19,1.39,1.3,1.38,1.38,252300.0,1.38
2021-02-23,1.49,1.32,1.45,1.48,464300.0,1.48
2021-02-25,1.62,1.41,1.58,1.45,539200.0,1.45
2021-03-01,1.58,1.46,1.51,1.5,506400.0,1.5
2021-03-03,1.52,1.44,1.46,1.47,338900.0,1.47
2021-03-05,1.56,1.42,1.49,1.52,614300.0,1.52
2021-03-09,1.57,1.5,1.56,1.55,257200.0,1.55
2021-03-11,1.79,1.54,1.6,1.72,759200.0,1.72
2021-03-15,1.94,1.68,1.73,1.81,923800.0,1.81
2021-03-17,1.8,1.69,1.8,1.7,377200.0,1.7
2021-03-19,1.7,1.55,1.62,1.68,345300.0,1.68
2021-03-23,1.67,1.53,1.66,1.57,447800.0,1.57
2021-03-25,1.62,1.45,1.62,1.6,291300.0,1.6
2021-03-29,1.64,1.52,1.62,1.54,197300.0,1.54
2021-03-31,1.59,1.55,1.59,1.58,95600.0,1.58
2021-04-05,1.66,1.53,1.66,1.55,498800.0,1.55
2021-04-07,1.58,1.42,1.51,1.46,233300.0,1.46
2021-04-09,1.51,1.45,1.48,1.47,182900.0,1.47
2021-04-13,1.51,1.43,1.46,1.47,331500.0,1.47
2021-04-15,1.61,1.54,1.58,1.59,141200.0,1.59
2021-04-19,1.57,1.5,1.5,1.54,88200.0,1.54
2021-04-21,1.53,1.47,1.47,1.5,99300.0,1.5
2021-04-23,1.53,1.44,1.46,1.53,62300.0,1.53
2021-04-27,1.58,1.51,1.55,1.55,145400.0,1.55
2021-04-29,1.68,1.57,1.59,1.65,209200.0,1.65
2021-05-03,1.63,1.57,1.58,1.59,105000.0,1.59
2021-05-05,1.69,1.59,1.6,1.67,248500.0,1.67
2021-05-07,1.61,1.5,1.6,1.56,486400.0,1.56
2021-05-11,1.56,1.42,1.48,1.54,448800.0,1.54
2021-05-13,1.56,1.46,1.53,1.49,244800.0,1.49
2021-05-17,1.7,1.54,1.54,1.66,249500.0,1.66
2021-05-19,1.79,1.67,1.78,1.77,356400.0,1.77
2021-05-21,1.79,1.71,1.75,1.78,145200.0,1.78
2021-05-25,1.8,1.69,1.8,1.71,247600.0,1.71
2021-05-27,1.78,1.7,1.75,1.75,291800.0,1.75
2021-06-01,1.82,1.72,1.73,1.78,735200.0,1.78
2021-06-03,1.95,1.82,1.84,1.9,461800.0,1.9
2021-06-07,1.92,1.84,1.87,1.91,217000.0,1.91
2021-06-09,1.97,1.89,1.96,1.91,144400.0,1.91
2021-06-11,1.91,1.85,1.9,1.88,304500.0,1.88
2021-06-15,1.86,1.81,1.86,1.85,150600.0,1.85
2021-06-17,1.97,1.77,1.95,1.87,410500.0,1.87
2021-06-21,1.97,1.83,1.85,1.9,322500.0,1.9
2021-06-23,2.03,1.86,1.87,1.93,648600.0,1.93
2021-06-25,2.34,2.09,2.2,2.16,1407000.0,2.16
2021-06-29,2.08,1.91,1.96,1.93,473200.0,1.93
2021-07-01,2.09,1.95,1.95,2.0,463800.0,2.0
2021-07-06,2.04,1.88,2.03,1.94,319900.0,1.94
2021-07-08,1.83,1.72,1.78,1.77,298600.0,1.77
2021-07-12,1.89,1.82,1.86,1.89,125100.0,1.89
2021-07-14,1.88,1.74,1.84,1.8,303800.0,1.8
2021-07-16,1.75,1.6,1.7,1.62,378200.0,1.62
2021-07-20,1.68,1.57,1.57,1.62,210100.0,1.62
2021-07-22,1.74,1.65,1.72,1.7,68600.0,1.7
2021-07-26,1.77,1.67,1.69,1.7,108100.0,1.7
2021-07-28,1.69,1.6,1.66,1.65,193700.0,1.65
2021-07-30,1.73,1.63,1.67,1.68,164800.0,1.68
2021-08-03,1.67,1.59,1.59,1.65,130300.0,1.65
2021-08-05,1.66,1.58,1.59,1.59,118400.0,1.59
2021-08-09,1.72,1.59,1.65,1.71,124400.0,1.71
2021-08-11,1.75,1.64,1.71,1.73,165200.0,1.73
2021-08-13,1.7,1.61,1.7,1.61,84000.0,1.61
2021-08-17,1.66,1.52,1.61,1.55,287900.0,1.55
2021-08-19,1.59,1.49,1.55,1.55,320900.0,1.55
2021-08-23,1.75,1.64,1.64,1.69,294000.0,1.69
2021-08-25,1.83,1.72,1.75,1.82,246200.0,1.82
2021-08-27,1.85,1.78,1.78,1.81,177000.0,1.81
2021-08-31,1.82,1.78,1.82,1.81,86200.0,1.81
2021-09-02,1.87,1.79,1.79,1.83,158900.0,1.83
2021-09-07,1.91,1.78,1.91,1.82,120900.0,1.82
2021-09-09,1.84,1.78,1.79,1.8,27200.0,1.8
2021-09-13,1.92,1.84,1.87,1.87,141200.0,1.87
2021-09-15,1.95,1.81,1.85,1.95,272300.0,1.95
2021-09-17,1.98,1.91,1.98,1.94,164300.0,1.94
2021-09-21,1.94,1.86,1.92,1.94,105700.0,1.94
2021-09-23,2.1,1.98,1.99,2.07,251400.0,2.07
2021-09-27,2.18,2.05,2.1,2.08,560000.0,2.08
2021-09-29,2.23,2.01,2.18,2.02,541400.0,2.02
2021-10-01,2.42,2.2,2.22,2.28,687200.0,2.28
2021-10-05,2.85,2.54,2.65,2.76,1616300.0,2.76
2021-10-07,3.13,2.77,2.89,3.04,1385200.0,3.04
2021-10-11,3.42,3.06,3.16,3.19,1798500.0,3.19
2021-10-13,2.91,2.7,2.83,2.83,846500.0,2.83
2021-10-15,2.95,2.6,2.84,2.61,1056500.0,2.61
2021-10-19,2.61,2.43,2.57,2.51,693800.0,2.51
2021-10-21,2.83,2.61,2.79,2.64,487500.0,2.64
2021-10-25,2.83,2.69,2.71,2.82,560500.0,2.82
2021-10-27,2.76,2.64,2.66,2.67,233900.0,2.67
2021-10-29,2.75,2.61,2.73,2.67,273500.0,2.67
2021-11-02,2.69,2.57,2.6,2.67,410000.0,2.67
2021-11-04,2.69,2.4,2.69,2.49,738300.0,2.49
2021-11-08,3.0,2.8,2.85,2.95,886600.0,2.95
2021-11-10,3.09,2.92,3.03,3.05,962100.0,3.05
2021-11-12,3.2,3.02,3.03,3.17,1108400.0,3.17
2021-11-16,3.36,3.13,3.34,3.31,997100.0,3.31
2021-11-18,3.48,3.06,3.35,3.07,943800.0,3.07
2021-11-22,2.99,2.72,2.76,2.88,740100.0,2.88
2021-11-24,3.05,2.82,2.85,2.99,392100.0,2.99
2021-11-29,3.01,2.74,3.0,2.79,1149400.0,2.79
2021-12-01,2.85,2.6,2.76,2.64,682100.0,2.64
2021-12-03,2.76,2.56,2.68,2.62,430300.0,2.62
2021-12-07,2.91,2.72,2.75,2.85,531300.0,2.85
2021-12-09,3.02,2.89,3.0,2.97,351200.0,2.97
2021-12-13,3.13,2.85,3.11,2.88,643200.0,2.88
2021-12-15,2.82,2.63,2.76,2.78,493500.0,2.78
2021-12-17,2.71,2.6,2.64,2.67,275400.0,2.67
2021-12-21,2.99,2.64,2.64,2.95,937200.0,2.95
2021-12-23,2.94,2.82,2.93,2.87,325000.0,2.87
2021-12-28,3.14,2.96,3.07,2.96,397900.0,2.96
2021-12-30,3.0,2.9,2.95,2.95,362800.0,2.95
2022-01-03,3.21,3.03,3.05,3.09,788200.0,3.09
2022-01-05,3.23,3.08,3.17,3.1,698800.0,3.1
2022-01-07,3.37,3.16,3.35,3.18,531100.0,3.18
2022-01-11,3.26,3.07,3.11,3.24,505400.0,3.24
2022-01-13,3.5,3.22,3.5,3.26,805100.0,3.26
2022-01-18,3.35,3.14,3.35,3.25,707900.0,3.25
2022-01-20,3.36,3.12,3.26,3.17,762500.0,3.17
2022-01-24,2.85,2.68,2.73,2.76,1266800.0,2.76
2022-01-26,3.14,2.99,3.01,3.03,1110800.0,3.03
2022-01-28,2.99,2.82,2.97,2.96,610300.0,2.96
2022-02-01,3.2,2.99,3.01,3.19,816200.0,3.19
2022-02-03,3.31,3.1,3.16,3.25,492200.0,3.25
2022-02-07,3.47,3.22,3.29,3.4,701800.0,3.4
2022-02-09,3.33,3.14,3.21,3.28,438200.0,3.28
2022-02-11,3.41,3.28,3.3,3.41,408900.0,3.41
2022-02-15,3.35,3.15,3.25,3.28,438300.0,3.28
2022-02-17,3.31,3.17,3.2,3.2,317000.0,3.2
2022-02-22,3.34,3.13,3.29,3.21,505900.0,3.21
2022-02-24,3.54,3.31,3.5,3.51,1089700.0,3.51
2022-02-28,3.91,3.62,3.63,3.9,1020900.0,3.9
2022-03-02,4.06,3.78,4.02,3.81,729200.0,3.81
2022-03-04,4.08,3.7,3.7,4.01,1115300.0,4.01
2022-03-08,4.29,3.78,4.22,3.85,1576100.0,3.85
2022-03-10,3.96,3.71,3.85,3.85,818600.0,3.85
2022-03-14,3.62,3.35,3.6,3.42,1111000.0,3.42
2022-03-16,3.47,3.26,3.47,3.35,316600.0,3.35
2022-03-18,3.61,3.43,3.57,3.45,546000.0,3.45
2022-03-22,3.63,3.47,3.58,3.53,674400.0,3.53
2022-03-24,3.75,3.56,3.71,3.6,548400.0,3.6
2022-03-28,3.68,3.46,3.68,3.58,1014500.0,3.58
2022-03-30,3.92,3.71,3.72,3.78,466100.0,3.78
2022-04-01,3.73,3.6,3.63,3.71,490300.0,3.71
2022-04-05,3.98,3.85,3.9,3.87,573500.0,3.87
2022-04-07,3.94,3.77,3.89,3.92,396800.0,3.92
2022-04-11,4.05,3.84,4.05,3.91,515800.0,3.91
2022-04-13,4.18,4.06,4.08,4.15,664800.0,4.15
2022-04-18,5.04,4.56,4.57,4.91,2492200.0,4.91
2022-04-20,5.07,4.74,4.9,5.04,1375900.0,5.04
2022-04-22,4.87,4.49,4.75,4.59,1098000.0,4.59
2022-04-26,4.69,4.35,4.65,4.44,1045200.0,4.44
2022-04-28,4.51,4.23,4.44,4.47,559600.0,4.47
2022-05-02,4.44,4.13,4.3,4.23,1253300.0,4.23
2022-05-04,4.48,4.17,4.48,4.36,591600.0,4.36
2022-05-06,4.62,4.34,4.5,4.46,559900.0,4.46
2022-05-10,4.11,3.83,4.06,3.89,632100.0,3.89
2022-05-12,3.98,3.69,3.96,3.77,868200.0,3.77
2022-05-16,4.2,4.04,4.09,4.18,806700.0,4.18
2022-05-18,4.2,3.92,4.2,4.0,713000.0,4.0
2022-05-20,4.46,4.21,4.25,4.34,1500600.0,4.34
2022-05-24,4.43,4.3,4.4,4.4,850500.0,4.4
2022-05-26,4.77,4.53,4.54,4.71,1288500.0,4.71
2022-05-31,4.88,4.59,4.87,4.72,1147600.0,4.72
2022-06-02,4.99,4.73,4.8,4.91,1221400.0,4.91
2022-06-06,5.15,4.88,5.15,5.07,1096800.0,5.07
2022-06-08,5.5,5.17,5.25,5.3,1882000.0,5.3
2022-06-10,4.85,4.55,4.76,4.65,1002100.0,4.65
2022-06-14,4.66,4.26,4.55,4.34,1304400.0,4.34
2022-06-16,4.29,4.01,4.21,4.03,1224200.0,4.03
2022-06-21,4.08,3.8,3.93,4.01,1735600.0,4.01
2022-06-23,3.73,3.23,3.72,3.31,1766500.0,3.31
2022-06-27,3.71,3.52,3.53,3.6,1763000.0,3.6
2022-06-29,3.94,3.48,3.88,3.52,1150100.0,3.52
2022-07-01,3.57,3.31,3.42,3.5,1070300.0,3.5
2022-07-06,3.35,3.02,3.25,3.26,1042300.0,3.26
2022-07-08,3.42,3.26,3.41,3.3,730400.0,3.3
2022-07-12,3.16,2.97,3.1,3.12,698000.0,3.12
2022-07-14,3.45,3.09,3.42,3.35,5853800.0,3.35
2022-07-18,3.55,3.3,3.48,3.35,3081000.0,3.35
2022-07-20,3.5,3.3,3.38,3.49,1132800.0,3.49
2022-07-22,3.35,3.19,3.31,3.22,732600.0,3.22
2022-07-26,3.63,3.42,3.62,3.52,578700.0,3.52
2022-07-28,3.74,3.56,3.71,3.66,625300.0,3.66
2022-08-01,3.79,3.58,3.76,3.74,713200.0,3.74
2022-08-03,3.72,3.03,3.72,3.18,2484700.0,3.18
2022-08-05,3.06,2.96,3.18,3.0161,77259.0,3.0161